# %ECSV 0.9
# ---
# datatype:
# - {name: wavelength, unit: micron, datatype: float64}
# - {name: flux, unit: Jy, datatype: float64}
# - {name: sigma, unit: Jy, datatype: float64}
wavelength flux sigma
2.60  0.068 0.0068
2.62  0.069 0.0069
2.64  0.070 0.0070
2.66  0.068 0.0068
2.68  0.067 0.0067
2.70  0.067 0.0067
2.72  0.067 0.0067
2.74  0.067 0.0067
2.76  0.070 0.0070
2.78  0.069 0.0069
2.80  0.067 0.0067
2.82  0.068 0.0068
2.84  0.065 0.0065
2.86  0.064 0.0064
2.88  0.065 0.0065
2.90  0.063 0.0063
2.92  0.064 0.0064
2.94  0.062 0.0062
2.96  0.062 0.0062
2.98  0.062 0.0062
3.00  0.059 0.0059
3.02  0.061 0.0061
3.04  0.060 0.0060
3.06  0.061 0.0061
3.08  0.062 0.0062
3.10  0.063 0.0063
3.12  0.064 0.0064
3.14  0.065 0.0065
3.16  0.066 0.0066
3.18  0.064 0.0064
3.20  0.070 0.0070
3.22  0.077 0.0077
3.24  0.090 0.0090
3.26  0.108 0.0108
3.28  0.136 0.0136
3.30  0.133 0.0133
3.32  0.110 0.0110
3.34  0.091 0.0091
3.36  0.085 0.0085
3.38  0.085 0.0085
3.40  0.088 0.0088
3.42  0.087 0.0087
3.44  0.085 0.0085
3.46  0.084 0.0084
3.48  0.080 0.0080
3.50  0.078 0.0078
3.52  0.077 0.0077
3.54  0.075 0.0075
3.56  0.074 0.0074
3.58  0.071 0.0071
3.60  0.069 0.0069
3.62  0.069 0.0069
3.64  0.067 0.0067
3.66  0.066 0.0066
3.68  0.066 0.0066
3.70  0.066 0.0066
3.72  0.068 0.0068
3.74  0.070 0.0070
3.76  0.070 0.0070
3.78  0.070 0.0070
3.80  0.068 0.0068
3.82  0.068 0.0068
3.84  0.070 0.0070
3.86  0.067 0.0067
3.88  0.068 0.0068
3.90  0.067 0.0067
3.92  0.067 0.0067
3.94  0.068 0.0068
3.96  0.065 0.0065
3.98  0.066 0.0066
4.00  0.068 0.0068
4.02  0.071 0.0071
4.04  0.079 0.0079
4.06  0.085 0.0085
4.08  0.078 0.0078
4.10  0.068 0.0068
4.12  0.067 0.0067
4.14  0.064 0.0064
4.16  0.065 0.0065
4.18  0.066 0.0066
4.20  0.064 0.0064
4.22  0.062 0.0062
4.24  0.060 0.0060
4.26  0.056 0.0056
4.28  0.058 0.0058
4.30  0.062 0.0062
4.32  0.063 0.0063
4.34  0.063 0.0063
4.36  0.063 0.0063
4.38  0.061 0.0061
4.40  0.058 0.0058
4.42  0.060 0.0060
4.44  0.056 0.0056
4.46  0.058 0.0058
4.48  0.057 0.0057
4.50  0.055 0.0055
4.52  0.053 0.0053
4.54  0.052 0.0052
4.56  0.052 0.0052
4.58  0.051 0.0051
4.60  0.050 0.0050
4.62  0.053 0.0053
4.64  0.056 0.0056
4.66  0.060 0.0060
4.68  0.057 0.0057
4.70  0.058 0.0058
4.72  0.058 0.0058
4.74  0.060 0.0060
4.76  0.057 0.0057
4.78  0.057 0.0057
4.80  0.059 0.0059
4.82  0.060 0.0060
4.84  0.061 0.0061
4.86  0.061 0.0061
4.88  0.060 0.0060
4.90  0.059 0.0059
4.92  0.059 0.0059
4.94  0.061 0.0061
4.96  0.063 0.0063
4.98  0.065 0.0065
5.00  0.067 0.0067
5.02  0.069 0.0069
5.04  0.073 0.0073
5.06  0.075 0.0075
5.08  0.075 0.0075
5.10  0.078 0.0078
5.12  0.079 0.0079
5.14  0.084 0.0084
5.16  0.090 0.0090
5.18  0.093 0.0093
5.20  0.102 0.0102
5.22  0.115 0.0115
5.24  0.135 0.0135
5.26  0.131 0.0131
5.28  0.122 0.0122
5.30  0.114 0.0114
5.32  0.121 0.0121
5.34  0.119 0.0119
5.36  0.107 0.0107
5.38  0.089 0.0089
5.40  0.084 0.0084
5.42  0.088 0.0088
5.44  0.093 0.0093
5.46  0.095 0.0095
5.48  0.099 0.0099
5.50  0.105 0.0105
5.52  0.111 0.0111
5.54  0.113 0.0113
5.56  0.117 0.0117
5.58  0.125 0.0125
5.60  0.142 0.0142
5.62  0.165 0.0165
5.64  0.184 0.0184
5.66  0.187 0.0187
5.68  0.191 0.0191
5.70  0.195 0.0195
5.72  0.197 0.0197
5.74  0.194 0.0194
5.76  0.188 0.0188
5.78  0.180 0.0180
5.80  0.174 0.0174
5.82  0.174 0.0174
5.84  0.179 0.0179
5.86  0.185 0.0185
5.88  0.188 0.0188
5.90  0.191 0.0191
5.92  0.186 0.0186
5.94  0.194 0.0194
5.96  0.212 0.0212
5.98  0.243 0.0243
6.00  0.273 0.0273
6.02  0.297 0.0297
6.04  0.311 0.0311
6.06  0.317 0.0317
6.08  0.332 0.0332
6.10  0.373 0.0373
6.12  0.452 0.0452
6.14  0.572 0.0572
6.16  0.726 0.0726
6.18  0.894 0.0894
6.20  1.000 0.1000
6.22  1.026 0.1026
6.24  0.969 0.0969
6.26  0.876 0.0876
6.28  0.780 0.0780
6.30  0.690 0.0690
6.32  0.615 0.0615
6.34  0.557 0.0557
6.36  0.514 0.0514
6.38  0.477 0.0477
6.40  0.446 0.0446
6.42  0.419 0.0419
6.44  0.391 0.0391
6.46  0.372 0.0372
6.48  0.357 0.0357
6.50  0.348 0.0348
6.52  0.341 0.0341
6.54  0.338 0.0338
6.56  0.337 0.0337
6.58  0.339 0.0339
6.60  0.347 0.0347
6.62  0.356 0.0356
6.64  0.366 0.0366
6.66  0.369 0.0369
6.68  0.371 0.0371
6.70  0.376 0.0376
6.72  0.377 0.0377
6.74  0.381 0.0381
6.76  0.387 0.0387
6.78  0.386 0.0386
6.80  0.385 0.0385
6.82  0.386 0.0386
6.84  0.393 0.0393
6.86  0.405 0.0405
6.88  0.420 0.0420
6.90  0.439 0.0439
6.92  0.461 0.0461
6.94  0.498 0.0498
6.96  0.568 0.0568
6.98  0.625 0.0625
7.00  0.647 0.0647
7.02  0.577 0.0577
7.04  0.534 0.0534
7.06  0.520 0.0520
7.08  0.524 0.0524
7.10  0.538 0.0538
7.12  0.546 0.0546
7.14  0.553 0.0553
7.16  0.561 0.0561
7.18  0.574 0.0574
7.20  0.588 0.0588
7.22  0.609 0.0609
7.24  0.630 0.0630
7.26  0.653 0.0653
7.28  0.684 0.0684
7.30  0.715 0.0715
7.32  0.754 0.0754
7.34  0.801 0.0801
7.36  0.850 0.0850
7.38  0.910 0.0910
7.40  0.965 0.0965
7.42  1.025 0.1025
7.44  1.101 0.1101
7.46  1.182 0.1182
7.48  1.260 0.1260
7.50  1.341 0.1341
7.52  1.421 0.1421
7.54  1.498 0.1498
7.56  1.562 0.1562
7.58  1.613 0.1613
7.60  1.663 0.1663
7.62  1.678 0.1678
7.64  1.677 0.1677
7.66  1.675 0.1675
7.68  1.664 0.1664
7.70  1.648 0.1648
7.72  1.632 0.1632
7.74  1.624 0.1624
7.76  1.620 0.1620
7.78  1.614 0.1614
7.80  1.602 0.1602
7.82  1.587 0.1587
7.84  1.567 0.1567
7.86  1.527 0.1527
7.88  1.485 0.1485
7.90  1.438 0.1438
7.92  1.380 0.1380
7.94  1.319 0.1319
7.96  1.261 0.1261
7.98  1.207 0.1207
8.00  1.155 0.1155
8.02  1.105 0.1105
8.04  1.060 0.1060
8.06  1.016 0.1016
8.08  0.976 0.0976
8.10  0.943 0.0943
8.12  0.915 0.0915
8.14  0.892 0.0892
8.16  0.877 0.0877
8.18  0.866 0.0866
8.20  0.858 0.0858
8.22  0.854 0.0854
8.24  0.852 0.0852
8.26  0.856 0.0856
8.28  0.861 0.0861
8.30  0.863 0.0863
8.32  0.864 0.0864
8.34  0.863 0.0863
8.36  0.862 0.0862
8.38  0.860 0.0860
8.40  0.864 0.0864
8.42  0.871 0.0871
8.44  0.878 0.0878
8.46  0.892 0.0892
8.48  0.911 0.0911
8.50  0.930 0.0930
8.52  0.945 0.0945
8.54  0.962 0.0962
8.56  0.974 0.0974
8.58  0.976 0.0976
8.60  0.973 0.0973
8.62  0.954 0.0954
8.64  0.924 0.0924
8.66  0.889 0.0889
8.68  0.849 0.0849
8.70  0.804 0.0804
8.72  0.756 0.0756
8.74  0.707 0.0707
8.76  0.657 0.0657
8.78  0.609 0.0609
8.80  0.565 0.0565
8.82  0.527 0.0527
8.84  0.491 0.0491
8.86  0.463 0.0463
8.88  0.436 0.0436
8.90  0.424 0.0424
8.92  0.412 0.0412
8.94  0.397 0.0397
8.96  0.383 0.0383
8.98  0.372 0.0372
9.00  0.360 0.0360
9.02  0.348 0.0348
9.04  0.336 0.0336
9.06  0.323 0.0323
9.08  0.313 0.0313
9.10  0.304 0.0304
9.12  0.296 0.0296
9.14  0.290 0.0290
9.16  0.287 0.0287
9.18  0.283 0.0283
9.20  0.280 0.0280
9.22  0.277 0.0277
9.24  0.275 0.0275
9.26  0.272 0.0272
9.28  0.268 0.0268
9.30  0.264 0.0264
9.32  0.260 0.0260
9.34  0.257 0.0257
9.36  0.253 0.0253
9.38  0.250 0.0250
9.40  0.249 0.0249
9.42  0.249 0.0249
9.44  0.249 0.0249
9.46  0.249 0.0249
9.48  0.247 0.0247
9.50  0.246 0.0246
9.52  0.245 0.0245
9.54  0.245 0.0245
9.56  0.249 0.0249
9.58  0.252 0.0252
9.60  0.256 0.0256
9.62  0.260 0.0260
9.64  0.264 0.0264
9.66  0.268 0.0268
9.68  0.265 0.0265
9.70  0.262 0.0262
9.72  0.255 0.0255
9.74  0.248 0.0248
9.76  0.240 0.0240
9.78  0.234 0.0234
9.80  0.230 0.0230
9.82  0.228 0.0228
9.84  0.227 0.0227
9.86  0.227 0.0227
9.88  0.226 0.0226
9.90  0.225 0.0225
9.92  0.225 0.0225
9.94  0.226 0.0226
9.96  0.227 0.0227
9.98  0.227 0.0227
10.00 0.228 0.0228
10.02 0.229 0.0229
10.04 0.230 0.0230
10.06 0.231 0.0231
10.08 0.232 0.0232
10.10 0.234 0.0234
10.12 0.235 0.0235
10.14 0.235 0.0235
10.16 0.235 0.0235
10.18 0.235 0.0235
10.20 0.236 0.0236
10.22 0.238 0.0238
10.24 0.241 0.0241
10.26 0.243 0.0243
10.28 0.246 0.0246
10.30 0.247 0.0247
10.32 0.249 0.0249
10.34 0.251 0.0251
10.36 0.255 0.0255
10.38 0.261 0.0261
10.40 0.267 0.0267
10.42 0.275 0.0275
10.44 0.285 0.0285
10.46 0.296 0.0296
10.48 0.307 0.0307
10.50 0.319 0.0319
10.52 0.331 0.0331
10.54 0.341 0.0341
10.56 0.351 0.0351
10.58 0.360 0.0360
10.60 0.364 0.0364
10.62 0.366 0.0366
10.64 0.369 0.0369
10.66 0.371 0.0371
10.68 0.373 0.0373
10.70 0.374 0.0374
10.72 0.377 0.0377
10.74 0.380 0.0380
10.76 0.383 0.0383
10.78 0.386 0.0386
10.80 0.388 0.0388
10.82 0.391 0.0391
10.84 0.400 0.0400
10.86 0.410 0.0410
10.88 0.420 0.0420
10.90 0.444 0.0444
10.92 0.470 0.0470
10.94 0.497 0.0497
10.96 0.531 0.0531
10.98 0.565 0.0565
11.00 0.599 0.0599
11.02 0.625 0.0625
11.04 0.655 0.0655
11.06 0.690 0.0690
11.08 0.746 0.0746
11.10 0.829 0.0829
11.12 0.933 0.0933
11.14 1.113 0.1113
11.16 1.298 0.1298
11.18 1.487 0.1487
11.20 1.641 0.1641
11.22 1.769 0.1769
11.24 1.814 0.1814
11.26 1.824 0.1824
11.28 1.770 0.1770
11.30 1.699 0.1699
11.32 1.592 0.1592
11.34 1.485 0.1485
11.36 1.383 0.1383
11.38 1.298 0.1298
11.40 1.212 0.1212
11.42 1.135 0.1135
11.44 1.076 0.1076
11.46 1.017 0.1017
11.48 0.968 0.0968
11.50 0.931 0.0931
11.52 0.894 0.0894
11.54 0.865 0.0865
11.56 0.845 0.0845
11.58 0.824 0.0824
11.60 0.800 0.0800
11.62 0.779 0.0779
11.64 0.758 0.0758
11.66 0.746 0.0746
11.68 0.739 0.0739
11.70 0.736 0.0736
11.72 0.735 0.0735
11.74 0.736 0.0736
11.76 0.738 0.0738
11.78 0.743 0.0743
11.80 0.752 0.0752
11.82 0.763 0.0763
11.84 0.775 0.0775
11.86 0.793 0.0793
11.88 0.811 0.0811
11.90 0.828 0.0828
11.92 0.843 0.0843
11.94 0.856 0.0856
11.96 0.865 0.0865
11.98 0.871 0.0871
12.00 0.875 0.0875
12.02 0.874 0.0874
12.04 0.870 0.0870
12.06 0.866 0.0866
12.08 0.860 0.0860
12.10 0.853 0.0853
12.12 0.849 0.0849
12.14 0.847 0.0847
12.16 0.847 0.0847
12.18 0.853 0.0853
12.20 0.872 0.0872
12.22 0.893 0.0893
12.24 0.914 0.0914
12.26 0.939 0.0939
12.28 0.964 0.0964
12.30 0.981 0.0981
12.32 0.989 0.0989
12.34 0.997 0.0997
12.36 1.006 0.1006
12.38 1.015 0.1015
12.40 1.025 0.1025
12.42 1.039 0.1039
12.44 1.057 0.1057
12.46 1.075 0.1075
12.48 1.097 0.1097
12.50 1.121 0.1121
12.52 1.144 0.1144
12.54 1.170 0.1170
12.56 1.197 0.1197
12.58 1.224 0.1224
12.60 1.250 0.1250
12.62 1.276 0.1276
12.64 1.302 0.1302
12.66 1.338 0.1338
12.68 1.374 0.1374
12.70 1.424 0.1424
12.72 1.563 0.1563
12.74 1.724 0.1724
12.76 1.883 0.1883
12.78 2.061 0.2061
12.80 2.249 0.2249
12.82 2.248 0.2248
12.84 2.049 0.2049
12.86 1.777 0.1777
12.88 1.492 0.1492
12.90 1.200 0.1200
12.92 1.063 0.1063
12.94 0.956 0.0956
12.96 0.911 0.0911
12.98 0.866 0.0866
13.00 0.840 0.0840
13.02 0.828 0.0828
13.04 0.815 0.0815
13.06 0.808 0.0808
13.08 0.804 0.0804
13.10 0.799 0.0799
13.12 0.800 0.0800
13.14 0.803 0.0803
13.16 0.806 0.0806
13.18 0.808 0.0808
13.20 0.810 0.0810
13.22 0.811 0.0811
13.24 0.811 0.0811
13.26 0.810 0.0810
13.28 0.810 0.0810
13.30 0.806 0.0806
13.32 0.802 0.0802
13.34 0.799 0.0799
13.36 0.806 0.0806
13.38 0.814 0.0814
13.40 0.822 0.0822
13.42 0.819 0.0819
13.44 0.815 0.0815
13.46 0.812 0.0812
13.48 0.814 0.0814
13.50 0.817 0.0817
13.52 0.818 0.0818
13.54 0.815 0.0815
13.56 0.811 0.0811
13.58 0.807 0.0807
13.60 0.806 0.0806
13.62 0.803 0.0803
13.64 0.800 0.0800
13.66 0.793 0.0793
13.68 0.786 0.0786
13.70 0.779 0.0779
13.72 0.773 0.0773
13.74 0.767 0.0767
13.76 0.761 0.0761
13.78 0.755 0.0755
13.80 0.749 0.0749
13.82 0.745 0.0745
13.84 0.742 0.0742
13.86 0.741 0.0741
13.88 0.733 0.0733
13.90 0.718 0.0718
13.92 0.718 0.0718
13.94 0.721 0.0721
13.96 0.725 0.0725
13.98 0.728 0.0728
14.00 0.732 0.0732
14.02 0.737 0.0737
14.04 0.742 0.0742
14.06 0.747 0.0747
14.08 0.753 0.0753
14.10 0.759 0.0759
14.12 0.765 0.0765
14.14 0.771 0.0771
14.16 0.778 0.0778
14.18 0.786 0.0786
14.20 0.795 0.0795
14.22 0.804 0.0804
14.24 0.809 0.0809
14.26 0.804 0.0804
14.28 0.799 0.0799
14.30 0.794 0.0794
14.32 0.789 0.0789
14.34 0.785 0.0785
14.36 0.781 0.0781
14.38 0.777 0.0777
14.40 0.773 0.0773
14.42 0.768 0.0768
14.44 0.763 0.0763
14.46 0.759 0.0759
14.48 0.754 0.0754
14.50 0.748 0.0748
14.52 0.742 0.0742
14.54 0.736 0.0736
14.56 0.730 0.0730
14.58 0.730 0.0730
14.60 0.731 0.0731
14.62 0.731 0.0731
14.64 0.732 0.0732
14.66 0.734 0.0734
14.68 0.736 0.0736
14.70 0.738 0.0738
14.72 0.741 0.0741
14.74 0.744 0.0744
14.76 0.747 0.0747
14.78 0.750 0.0750
14.80 0.753 0.0753
14.82 0.752 0.0752
14.84 0.751 0.0751
14.86 0.750 0.0750
14.88 0.748 0.0748
14.90 0.748 0.0748
14.92 0.748 0.0748
14.94 0.748 0.0748
14.96 0.748 0.0748
14.98 0.749 0.0749
15.00 0.751 0.0751
15.02 0.753 0.0753
15.04 0.755 0.0755
15.06 0.756 0.0756
15.08 0.758 0.0758
15.10 0.760 0.0760
15.12 0.763 0.0763
15.14 0.765 0.0765
15.16 0.766 0.0766
15.18 0.768 0.0768
15.20 0.769 0.0769
15.22 0.773 0.0773
15.24 0.777 0.0777
15.26 0.780 0.0780
15.28 0.784 0.0784
15.30 0.785 0.0785
15.32 0.792 0.0792
15.34 0.798 0.0798
15.36 0.805 0.0805
15.38 0.817 0.0817
15.40 0.836 0.0836
15.42 0.855 0.0855
15.44 0.874 0.0874
15.46 0.905 0.0905
15.48 0.944 0.0944
15.50 0.976 0.0976
15.52 1.008 0.1008
15.54 1.022 0.1022
15.56 1.032 0.1032
15.58 1.042 0.1042
15.60 1.052 0.1052
15.62 1.027 0.1027
15.64 1.001 0.1001
15.66 0.975 0.0975
15.68 0.949 0.0949
15.70 0.944 0.0944
15.72 0.930 0.0930
15.74 0.925 0.0925
15.76 0.919 0.0919
15.78 0.920 0.0920
15.80 0.921 0.0921
15.82 0.922 0.0922
15.84 0.923 0.0923
15.86 0.925 0.0925
15.88 0.928 0.0928
15.90 0.931 0.0931
15.92 0.935 0.0935
15.94 0.937 0.0937
15.96 0.939 0.0939
15.98 0.942 0.0942
16.00 0.944 0.0944
16.02 0.946 0.0946
16.04 0.948 0.0948
16.06 0.952 0.0952
16.08 0.956 0.0956
16.10 0.962 0.0962
16.12 0.969 0.0969
16.14 0.978 0.0978
16.16 0.987 0.0987
16.18 0.999 0.0999
16.20 1.011 0.1011
16.22 1.029 0.1029
16.24 1.048 0.1048
16.26 1.068 0.1068
16.28 1.090 0.1090
16.30 1.110 0.1110
16.32 1.129 0.1129
16.34 1.164 0.1164
16.36 1.204 0.1204
16.38 1.245 0.1245
16.40 1.286 0.1286
16.42 1.313 0.1313
16.44 1.331 0.1331
16.46 1.344 0.1344
16.48 1.351 0.1351
16.50 1.342 0.1342
16.52 1.325 0.1325
16.54 1.308 0.1308
16.56 1.291 0.1291
16.58 1.282 0.1282
16.60 1.277 0.1277
16.62 1.273 0.1273
16.64 1.274 0.1274
16.66 1.278 0.1278
16.68 1.285 0.1285
16.70 1.292 0.1292
16.72 1.300 0.1300
16.74 1.307 0.1307
16.76 1.314 0.1314
16.78 1.320 0.1320
16.80 1.326 0.1326
16.82 1.332 0.1332
16.84 1.338 0.1338
16.86 1.343 0.1343
16.88 1.357 0.1357
16.90 1.375 0.1375
16.92 1.397 0.1397
16.94 1.418 0.1418
16.96 1.459 0.1459
16.98 1.512 0.1512
17.00 1.570 0.1570
17.02 1.629 0.1629
17.04 1.651 0.1651
17.06 1.641 0.1641
17.08 1.618 0.1618
17.10 1.594 0.1594
17.12 1.569 0.1569
17.14 1.540 0.1540
17.16 1.510 0.1510
17.18 1.480 0.1480
17.20 1.457 0.1457
17.22 1.450 0.1450
17.24 1.451 0.1451
17.26 1.451 0.1451
17.28 1.452 0.1452
17.30 1.457 0.1457
17.32 1.464 0.1464
17.34 1.471 0.1471
17.36 1.477 0.1477
17.38 1.476 0.1476
17.40 1.468 0.1468
17.42 1.461 0.1461
17.44 1.453 0.1453
17.46 1.436 0.1436
17.48 1.414 0.1414
17.50 1.392 0.1392
17.52 1.370 0.1370
17.54 1.354 0.1354
17.56 1.343 0.1343
17.58 1.331 0.1331
17.60 1.319 0.1319
17.62 1.311 0.1311
17.64 1.309 0.1309
17.66 1.307 0.1307
17.68 1.304 0.1304
17.70 1.307 0.1307
17.72 1.310 0.1310
17.74 1.313 0.1313
17.76 1.319 0.1319
17.78 1.327 0.1327
17.80 1.335 0.1335
17.82 1.344 0.1344
17.84 1.352 0.1352
17.86 1.355 0.1355
17.88 1.354 0.1354
17.90 1.354 0.1354
17.92 1.354 0.1354
17.94 1.347 0.1347
17.96 1.338 0.1338
17.98 1.331 0.1331
18.00 1.324 0.1324
18.02 1.319 0.1319
18.04 1.315 0.1315
18.06 1.311 0.1311
18.08 1.308 0.1308
18.10 1.305 0.1305
18.12 1.303 0.1303
18.14 1.301 0.1301
18.16 1.300 0.1300
18.18 1.300 0.1300
18.20 1.302 0.1302
18.22 1.304 0.1304
18.24 1.307 0.1307
18.26 1.309 0.1309
18.28 1.311 0.1311
18.30 1.314 0.1314
18.32 1.316 0.1316
18.34 1.320 0.1320
18.36 1.325 0.1325
18.38 1.331 0.1331
18.40 1.337 0.1337
18.42 1.342 0.1342
18.44 1.345 0.1345
18.46 1.349 0.1349
18.48 1.352 0.1352
18.50 1.358 0.1358
18.52 1.373 0.1373
18.54 1.387 0.1387
18.56 1.402 0.1402
18.58 1.423 0.1423
18.60 1.476 0.1476
18.62 1.530 0.1530
18.64 1.584 0.1584
18.66 1.638 0.1638
18.68 1.713 0.1713
18.70 1.796 0.1796
18.72 1.880 0.1880
18.74 1.948 0.1948
18.76 1.887 0.1887
18.78 1.787 0.1787
18.80 1.686 0.1686
18.82 1.591 0.1591
18.84 1.543 0.1543
18.86 1.518 0.1518
18.88 1.493 0.1493
18.90 1.470 0.1470
18.92 1.466 0.1466
18.94 1.469 0.1469
18.96 1.473 0.1473
18.98 1.477 0.1477
19.00 1.480 0.1480
19.02 1.480 0.1480
19.04 1.481 0.1481
19.06 1.481 0.1481
19.08 1.482 0.1482
19.10 1.487 0.1487
19.12 1.492 0.1492
19.14 1.498 0.1498
19.16 1.505 0.1505
19.18 1.510 0.1510
19.20 1.514 0.1514
19.22 1.518 0.1518
19.24 1.522 0.1522
19.26 1.525 0.1525
19.28 1.528 0.1528
19.30 1.532 0.1532
19.32 1.534 0.1534
19.34 1.538 0.1538
19.36 1.544 0.1544
19.38 1.550 0.1550
19.40 1.554 0.1554
19.42 1.557 0.1557
19.44 1.561 0.1561
19.46 1.565 0.1565
19.48 1.569 0.1569
19.50 1.572 0.1572
19.52 1.576 0.1576
19.54 1.586 0.1586
19.56 1.595 0.1595
19.58 1.601 0.1601
19.60 1.606 0.1606
19.62 1.614 0.1614
19.64 1.623 0.1623
19.66 1.632 0.1632
19.68 1.643 0.1643
19.70 1.654 0.1654
19.72 1.655 0.1655
19.74 1.656 0.1656
19.76 1.659 0.1659
19.78 1.662 0.1662
19.80 1.665 0.1665
19.82 1.669 0.1669
19.84 1.677 0.1677
19.86 1.686 0.1686
19.88 1.695 0.1695
19.90 1.704 0.1704
19.92 1.715 0.1715
19.94 1.725 0.1725
19.96 1.733 0.1733
19.98 1.741 0.1741
20.00 1.748 0.1748
20.02 1.754 0.1754
20.04 1.761 0.1761
20.06 1.768 0.1768
20.08 1.776 0.1776
20.10 1.782 0.1782
20.12 1.789 0.1789
20.14 1.795 0.1795
20.16 1.801 0.1801
20.18 1.803 0.1803
20.20 1.804 0.1804
20.22 1.804 0.1804
20.24 1.804 0.1804
20.26 1.816 0.1816
20.28 1.827 0.1827
20.30 1.834 0.1834
20.32 1.838 0.1838
20.34 1.847 0.1847
20.36 1.857 0.1857
20.38 1.865 0.1865
20.40 1.870 0.1870
20.42 1.874 0.1874
20.44 1.879 0.1879
20.46 1.884 0.1884
20.48 1.888 0.1888
20.50 1.894 0.1894
20.52 1.902 0.1902
20.54 1.910 0.1910
20.56 1.918 0.1918
20.58 1.926 0.1926
20.60 1.935 0.1935
20.62 1.943 0.1943
20.64 1.951 0.1951
20.66 1.959 0.1959
20.68 1.968 0.1968
20.70 1.975 0.1975
20.72 1.983 0.1983
20.74 1.990 0.1990
20.76 1.998 0.1998
20.78 2.005 0.2005
20.80 2.013 0.2013
20.82 2.020 0.2020
20.84 2.027 0.2027
20.86 2.033 0.2033
20.88 2.040 0.2040
20.90 2.046 0.2046
20.92 2.053 0.2053
20.94 2.058 0.2058
20.96 2.061 0.2061
20.98 2.067 0.2067
21.00 2.076 0.2076
21.02 2.085 0.2085
21.04 2.092 0.2092
21.06 2.098 0.2098
21.08 2.105 0.2105
21.10 2.111 0.2111
21.12 2.117 0.2117
21.14 2.124 0.2124
21.16 2.130 0.2130
21.18 2.137 0.2137
21.20 2.145 0.2145
21.22 2.152 0.2152
21.24 2.159 0.2159
21.26 2.167 0.2167
21.28 2.172 0.2172
21.30 2.175 0.2175
21.32 2.179 0.2179
21.34 2.184 0.2184
21.36 2.189 0.2189
21.38 2.194 0.2194
21.40 2.198 0.2198
21.42 2.203 0.2203
21.44 2.208 0.2208
21.46 2.213 0.2213
21.48 2.219 0.2219
21.50 2.225 0.2225
21.52 2.231 0.2231
21.54 2.237 0.2237
21.56 2.242 0.2242
21.58 2.248 0.2248
21.60 2.254 0.2254
21.62 2.260 0.2260
21.64 2.269 0.2269
21.66 2.279 0.2279
21.68 2.290 0.2290
21.70 2.300 0.2300
21.72 2.311 0.2311
21.74 2.321 0.2321
21.76 2.332 0.2332
21.78 2.342 0.2342
21.80 2.351 0.2351
21.82 2.354 0.2354
21.84 2.358 0.2358
21.86 2.361 0.2361
21.88 2.365 0.2365
21.90 2.368 0.2368
21.92 2.372 0.2372
21.94 2.375 0.2375
21.96 2.380 0.2380
21.98 2.385 0.2385
22.00 2.390 0.2390
22.02 2.395 0.2395
22.04 2.400 0.2400
22.06 2.406 0.2406
22.08 2.411 0.2411
22.10 2.416 0.2416
22.12 2.421 0.2421
22.14 2.428 0.2428
22.16 2.435 0.2435
22.18 2.443 0.2443
22.20 2.450 0.2450
22.22 2.458 0.2458
22.24 2.465 0.2465
22.26 2.473 0.2473
22.28 2.480 0.2480
22.30 2.489 0.2489
22.32 2.501 0.2501
22.34 2.512 0.2512
22.36 2.523 0.2523
22.38 2.534 0.2534
22.40 2.546 0.2546
22.42 2.557 0.2557
22.44 2.568 0.2568
22.46 2.578 0.2578
22.48 2.583 0.2583
22.50 2.588 0.2588
22.52 2.593 0.2593
22.54 2.598 0.2598
22.56 2.604 0.2604
22.58 2.609 0.2609
22.60 2.614 0.2614
22.62 2.620 0.2620
22.64 2.630 0.2630
22.66 2.639 0.2639
22.68 2.648 0.2648
22.70 2.657 0.2657
22.72 2.666 0.2666
22.74 2.675 0.2675
22.76 2.684 0.2684
22.78 2.693 0.2693
22.80 2.705 0.2705
22.82 2.717 0.2717
22.84 2.729 0.2729
22.86 2.741 0.2741
22.88 2.753 0.2753
22.90 2.765 0.2765
22.92 2.777 0.2777
22.94 2.788 0.2788
22.96 2.790 0.2790
22.98 2.789 0.2789
23.00 2.789 0.2789
23.02 2.789 0.2789
23.04 2.789 0.2789
23.06 2.788 0.2788
23.08 2.788 0.2788
23.10 2.787 0.2787
23.12 2.789 0.2789
23.14 2.793 0.2793
23.16 2.797 0.2797
23.18 2.801 0.2801
23.20 2.805 0.2805
23.22 2.809 0.2809
23.24 2.813 0.2813
23.26 2.819 0.2819
23.28 2.825 0.2825
23.30 2.832 0.2832
23.32 2.839 0.2839
23.34 2.846 0.2846
23.36 2.853 0.2853
23.38 2.860 0.2860
23.40 2.867 0.2867
23.42 2.874 0.2874
23.44 2.882 0.2882
23.46 2.893 0.2893
23.48 2.904 0.2904
23.50 2.915 0.2915
23.52 2.927 0.2927
23.54 2.938 0.2938
23.56 2.949 0.2949
23.58 2.962 0.2962
23.60 2.975 0.2975
23.62 2.984 0.2984
23.64 2.994 0.2994
23.66 3.003 0.3003
23.68 3.012 0.3012
23.70 3.021 0.3021
23.72 3.030 0.3030
23.74 3.038 0.3038
23.76 3.046 0.3046
23.78 3.053 0.3053
23.80 3.060 0.3060
23.82 3.066 0.3066
23.84 3.073 0.3073
23.86 3.080 0.3080
23.88 3.086 0.3086
23.90 3.092 0.3092
23.92 3.098 0.3098
23.94 3.104 0.3104
23.96 3.109 0.3109
23.98 3.115 0.3115
24.00 3.121 0.3121
24.02 3.127 0.3127
24.04 3.133 0.3133
24.06 3.139 0.3139
24.08 3.146 0.3146
24.10 3.152 0.3152
24.12 3.158 0.3158
24.14 3.165 0.3165
24.16 3.171 0.3171
24.18 3.177 0.3177
24.20 3.184 0.3184
24.22 3.189 0.3189
24.24 3.194 0.3194
24.26 3.199 0.3199
24.28 3.202 0.3202
24.30 3.205 0.3205
24.32 3.209 0.3209
24.34 3.212 0.3212
24.36 3.215 0.3215
24.38 3.217 0.3217
24.40 3.220 0.3220
24.42 3.222 0.3222
24.44 3.224 0.3224
24.46 3.225 0.3225
24.48 3.227 0.3227
24.50 3.228 0.3228
24.52 3.230 0.3230
24.54 3.234 0.3234
24.56 3.238 0.3238
24.58 3.242 0.3242
24.60 3.249 0.3249
24.62 3.258 0.3258
24.64 3.267 0.3267
24.66 3.276 0.3276
24.68 3.285 0.3285
24.70 3.295 0.3295
24.72 3.305 0.3305
24.74 3.315 0.3315
24.76 3.326 0.3326
24.78 3.339 0.3339
24.80 3.352 0.3352
24.82 3.365 0.3365
24.84 3.378 0.3378
24.86 3.390 0.3390
24.88 3.402 0.3402
24.90 3.414 0.3414
24.92 3.425 0.3425
24.94 3.428 0.3428
24.96 3.431 0.3431
24.98 3.435 0.3435
25.00 3.438 0.3438
25.02 3.437 0.3437
25.04 3.436 0.3436
25.06 3.435 0.3435
25.08 3.433 0.3433
25.10 3.436 0.3436
25.12 3.439 0.3439
25.14 3.442 0.3442
25.16 3.445 0.3445
25.18 3.450 0.3450
25.20 3.455 0.3455
25.22 3.461 0.3461
25.24 3.466 0.3466
25.26 3.470 0.3470
25.28 3.475 0.3475
25.30 3.479 0.3479
25.32 3.483 0.3483
25.34 3.490 0.3490
25.36 3.499 0.3499
25.38 3.508 0.3508
25.40 3.517 0.3517
25.42 3.527 0.3527
25.44 3.540 0.3540
25.46 3.552 0.3552
25.48 3.565 0.3565
25.50 3.579 0.3579
25.52 3.595 0.3595
25.54 3.611 0.3611
25.56 3.627 0.3627
25.58 3.643 0.3643
25.60 3.659 0.3659
25.62 3.676 0.3676
25.64 3.693 0.3693
25.66 3.709 0.3709
25.68 3.725 0.3725
25.70 3.740 0.3740
25.72 3.756 0.3756
25.74 3.772 0.3772
25.76 3.788 0.3788
25.78 3.804 0.3804
25.80 3.820 0.3820
25.82 3.833 0.3833
25.84 3.844 0.3844
25.86 3.855 0.3855
25.88 3.866 0.3866
25.90 3.877 0.3877
25.92 3.887 0.3887
25.94 3.897 0.3897
25.96 3.907 0.3907
25.98 3.914 0.3914
26.00 3.918 0.3918
26.02 3.922 0.3922
26.04 3.926 0.3926
26.06 3.930 0.3930
26.08 3.931 0.3931
26.10 3.930 0.3930
26.12 3.929 0.3929
26.14 3.928 0.3928
26.16 3.928 0.3928
26.18 3.927 0.3927
26.20 3.926 0.3926
26.22 3.925 0.3925
26.24 3.925 0.3925
26.26 3.927 0.3927
26.28 3.928 0.3928
26.30 3.933 0.3933
26.32 3.941 0.3941
26.34 3.950 0.3950
26.36 3.959 0.3959
26.38 3.967 0.3967
26.40 3.976 0.3976
26.42 3.984 0.3984
26.44 3.993 0.3993
26.46 4.001 0.4001
26.48 4.008 0.4008
26.50 4.015 0.4015
26.52 4.022 0.4022
26.54 4.030 0.4030
26.56 4.037 0.4037
26.58 4.042 0.4042
26.60 4.047 0.4047
26.62 4.052 0.4052
26.64 4.057 0.4057
26.66 4.061 0.4061
26.68 4.066 0.4066
26.70 4.070 0.4070
26.72 4.075 0.4075
26.74 4.080 0.4080
26.76 4.085 0.4085
26.78 4.089 0.4089
26.80 4.094 0.4094
26.82 4.098 0.4098
26.84 4.102 0.4102
26.86 4.106 0.4106
26.88 4.111 0.4111
26.90 4.118 0.4118
26.92 4.128 0.4128
26.94 4.138 0.4138
26.96 4.150 0.4150
26.98 4.162 0.4162
27.00 4.175 0.4175
27.02 4.187 0.4187
27.04 4.199 0.4199
27.06 4.211 0.4211
27.08 4.223 0.4223
27.10 4.235 0.4235
27.12 4.248 0.4248
27.14 4.260 0.4260
27.16 4.273 0.4273
27.18 4.286 0.4286
27.20 4.299 0.4299
27.22 4.312 0.4312
27.24 4.324 0.4324
27.26 4.335 0.4335
27.28 4.345 0.4345
27.30 4.355 0.4355
27.32 4.365 0.4365
27.34 4.374 0.4374
27.36 4.384 0.4384
27.38 4.394 0.4394
27.40 4.401 0.4401
27.42 4.409 0.4409
27.44 4.418 0.4418
27.46 4.426 0.4426
27.48 4.435 0.4435
27.50 4.443 0.4443
27.52 4.452 0.4452
27.54 4.460 0.4460
27.56 4.470 0.4470
27.58 4.480 0.4480
27.60 4.490 0.4490
27.62 4.501 0.4501
27.64 4.512 0.4512
27.66 4.522 0.4522
27.68 4.533 0.4533
27.70 4.544 0.4544
27.72 4.554 0.4554
27.74 4.564 0.4564
27.76 4.574 0.4574
27.78 4.584 0.4584
27.80 4.594 0.4594
27.82 4.604 0.4604
27.84 4.614 0.4614
27.86 4.623 0.4623
27.88 4.634 0.4634
27.90 4.648 0.4648
27.92 4.661 0.4661
27.94 4.673 0.4673
27.96 4.686 0.4686
27.98 4.698 0.4698